# F475W Wavelength  Transmittance   
3510 0.0
3550 3.32E-05
3590 2.71E-05 
3630 3.04E-05 
3670 2.48E-05 
3710 3.45E-05 
3750 5.39E-05 
3790 5.46E-05 
3830 0.00174 
3850 0.00837 
3860 0.015 
3870 0.0256 
3880 0.042 
3890 0.0649 
3900 0.0939 
3910 0.124
3920 0.156
3930 0.186
3940 0.218
3950 0.246
3960 0.279
3970 0.31
3980 0.345
3990 0.375
4000 0.404
4010 0.428
4020 0.452
4030 0.474
4040 0.505
4050 0.535
4060 0.572
4070 0.597
4080 0.62
4090 0.628
4100 0.639
4110 0.649
4120 0.664
4130 0.679
4140 0.699
4150 0.705
4160 0.712
4170 0.706
4180 0.706
4190 0.7
4200 0.711
4210 0.717
4220 0.736
4230 0.744
4240 0.763
4250 0.772
4260 0.787
4270 0.789
4280 0.801
4290 0.804
4300 0.813
4310 0.812
4320 0.819
4330 0.819
4340 0.824
4350 0.824
4360 0.83
4370 0.833
4380 0.836
4390 0.838
4400 0.835
4410 0.83
4420 0.831
4430 0.828
4440 0.832
4450 0.834
4460 0.841
4470 0.846
4480 0.853
4490 0.859
4500 0.865
4510 0.867
4520 0.871
4530 0.87
4540 0.869
4550 0.867
4560 0.862
4570 0.859
4580 0.853
4590 0.854
4600 0.852
4610 0.861
4620 0.861
4630 0.871
4640 0.879
4650 0.884
4660 0.888
4670 0.897
4680 0.898
4690 0.894
4700 0.892
4710 0.891
4720 0.897
4730 0.889
4740 0.89
4750 0.888
4760 0.897
4770 0.896
4780 0.906
4790 0.904
4800 0.906
4810 0.905
4820 0.906
4830 0.899
4840 0.898
4850 0.894
4860 0.896
4870 0.89
4880 0.89
4890 0.89
4900 0.894
4910 0.898
4920 0.907
4930 0.906
4940 0.905
4950 0.909
4960 0.91
4970 0.909
4980 0.908
4990 0.908
5000 0.91
5010 0.902
5020 0.901
5030 0.895
5040 0.891
5050 0.879
5060 0.882
5070 0.878
5080 0.884
5090 0.879
5100 0.88
5110 0.884
5120 0.886
5130 0.883
5140 0.886
5150 0.88
5160 0.879
5170 0.874
5180 0.866
5190 0.857
5200 0.852
5210 0.847
5220 0.845
5230 0.838
5240 0.842
5250 0.836
5260 0.842
5270 0.831
5280 0.827
5290 0.821
5300 0.813
5310 0.801
5320 0.786
5330 0.768
5340 0.758
5350 0.747
5360 0.746
5370 0.74
5380 0.752
5390 0.764
5400 0.788
5410 0.797
5420 0.805
5430 0.792
5440 0.776
5450 0.729
5460 0.663
5470 0.555
5480 0.429
5490 0.293
5500 0.183
5510 0.107
5520 0.0611
5530 0.0355
5540 0.0212
5550 0.013
5560 0.00851
5570 0.00575
5590 0.0046
5630 0.00148
5670 0.000756
5710 0.000548
5750 0.000293
5790 9.21E-05
5830 3.16E-05
5870 1.44E-05
5910 8.63E-06
5950 7.31E-06
5990 8.31E-06
6030 1.27E-05
6070 1.33E-05
6110 5.95E-06
6150 2.37E-06
6190 1.20E-06
6230 8.13E-07
6270 6.26E-07
6310 6.15E-07
6350 7.58E-07
6390 1.48E-06
6430 1.95E-06
6470 8.65E-07
6510 3.35E-07
6550 2.04E-07
6590 3.95E-07
6630 1.77E-07
6670 1.46E-07
6710 2.04E-07
6750 1.28E-07
6790 1.58E-07
6830 7.81E-08
6870 1.37E-07
6910 1.24E-07
6950 5.36E-07
6990 2.21E-07
7030 1.63E-07
7070 1.38E-07
7110 1.19E-07
7150 1.19E-07
7190 4.43E-07
7230 9.27E-08
7270 1.46E-07
7310 7.05E-08
7350 1.15E-07
7390 1.03E-07
7430 1.53E-07
7470 1.16E-07
7510 1.35E-07
7550 1.00E-07
7590 1.93E-07
7630 1.10E-07
7670 1.21E-07
7710 1.12E-07
7750 2.42E-07
7790 2.23E-07
7830 2.77E-07
7870 2.82E-07
8000 4.28E-07
8500 4.56E-07
9000 2.84E-07
9500 2.79E-06
10000 2.20E-05
10500 0.0
