# lambda(A)	T%
9412.00	0
9415.00	0.0293865
9418.00	0.042363749
9421.00	0.028431001
9424.00	0.03353025
9427.00	0.038658749
9430.00	0.01598025
9433.00	0.02688075
9436.00	0.006525675
9439.00	0.02163525
9442.00	0.036699001
9445.00	0.023673
9448.00	0.030819749
9451.00	0.026442
9454.00	0.023127
9457.00	0.019831501
9460.00	0.026188501
9463.00	0.01342575
9466.00	0.0435825
9469.00	0.029152501
9472.00	0.014703
9475.00	0.02099175
9478.00	0.034856249
9481.00	0.02222025
9484.00	0.0201045
9487.00	0.017979001
9490.00	0.056549999
9493.00	0.047433751
9496.00	0.058451252
9499.00	0.052923
9502.00	0.0473655
9505.00	0.04097925
9508.00	0.053810251
9511.00	0.0536445
9514.00	0.065871002
9517.00	0.078038998
9520.00	0.06857175
9523.00	0.096661498
9526.00	0.091874252
9529.00	0.109102502
9532.00	0.126359997
9535.00	0.118365005
9538.00	0.123434998
9541.00	0.132209997
9544.00	0.140497503
9547.00	0.148687497
9550.00	0.163020004
9553.00	0.172184994
9556.00	0.178424997
9559.00	0.184177495
9562.00	0.190027505
9565.00	0.194902509
9568.00	0.224055003
9571.00	0.202409998
9574.00	0.207187511
9577.00	0.212062503
9580.00	0.217522499
9583.00	0.238289998
9586.00	0.246674994
9589.00	0.248235006
9592.00	0.249697494
9595.00	0.2832375
9598.00	0.305954991
9601.00	0.306637497
9604.00	0.338422489
9607.00	0.370110003
9610.00	0.37693501
9613.00	0.401017489
9616.00	0.441382478
9619.00	0.483892484
9622.00	0.526500014
9625.00	0.546292505
9628.00	0.601964998
9631.00	0.674115003
9634.00	0.732322515
9637.00	0.790627459
9640.00	0.887444993
9643.00	0.961837491
9646.00	1.059825034
9649.00	1.194374969
9652.00	1.329899956
9655.00	1.477125033
9658.00	1.650675084
9661.00	1.844700063
9664.00	2.082600058
9667.00	2.320500053
9670.00	2.569125085
9673.00	2.887949925
9676.00	3.207750181
9679.00	3.572399961
9682.00	3.93607487
9685.00	4.368975079
9688.00	4.825275103
9691.00	5.283524869
9694.00	5.824649949
9697.00	6.366750263
9700.00	6.998550352
9703.00	7.573799919
9706.00	8.179274853
9709.00	8.853000216
9712.00	9.527699724
9715.00	10.21800008
9718.00	10.91025017
9721.00	11.7097499
9724.00	12.57749934
9727.00	13.45499966
9730.00	14.32274982
9733.00	15.25874969
9736.00	16.29224975
9739.00	17.42325
9742.00	18.55425026
9745.00	19.94850062
9748.00	21.33299936
9751.00	22.74675004
9754.00	24.47249874
9757.00	26.20799907
9760.00	28.27499919
9763.00	30.37125126
9766.00	32.69174986
9769.00	35.34375116
9772.00	37.98600085
9775.00	40.94999872
9778.00	44.06999923
9781.00	47.70675123
9784.00	51.36299774
9787.00	55.03874749
9790.00	58.65599915
9793.00	62.75099874
9796.00	66.58275113
9799.00	70.25850087
9802.00	73.93425062
9805.00	77.34674737
9808.00	80.76900154
9811.00	83.64525229
9814.00	85.98525122
9817.00	88.31549853
9820.00	90.56775033
9823.00	92.3325026
9826.00	93.4537527
9829.00	94.34099883
9832.00	95.22825077
9835.00	95.55000186
9838.00	95.74499935
9841.00	95.60849994
9844.00	95.79375163
9847.00	95.9789975
9850.00	95.99850073
9853.00	95.93025103
9856.00	96.20324984
9859.00	96.05699882
9862.00	95.92049941
9865.00	95.9789975
9868.00	96.46650285
9871.00	96.61274806
9874.00	96.52500093
9877.00	96.43724799
9880.00	96.28125116
9883.00	96.41775057
9886.00	96.2422505
9889.00	96.25200212
9892.00	96.26174793
9895.00	96.73950166
9898.00	96.67125195
9901.00	96.52500093
9904.00	96.63225129
9907.00	96.72975004
9910.00	96.77850232
9913.00	96.75899908
9916.00	96.7687507
9919.00	97.08075017
9922.00	97.40250126
9925.00	97.39274964
9928.00	97.15875149
9931.00	97.38299802
9934.00	97.10999921
9937.00	96.84675202
9940.00	96.58349901
9943.00	96.79799974
9946.00	96.77850232
9949.00	96.6419971
9952.00	96.51524931
9955.00	96.49575189
9958.00	96.49575189
9961.00	96.3105002
9964.00	96.18375242
9967.00	96.05699882
9970.00	96.26174793
9973.00	96.27149954
9976.00	96.21300146
9979.00	96.34950086
9982.00	96.48600027
9985.00	96.42750219
9988.00	96.2422505
9991.00	95.90100199
9994.00	95.82300067
9997.00	95.74499935
10000.00	95.41350245
10003.00	95.19900173
10006.00	95.39399922
10009.00	95.59874833
10012.00	95.5792509
10015.00	95.4427515
10018.00	95.63774899
10021.00	95.60849994
10024.00	95.5792509
10027.00	95.5110012
10030.00	95.67674965
10033.00	95.84249809
10036.00	95.94000265
10039.00	96.02774978
10042.00	95.94000265
10045.00	96.20324984
10048.00	96.11550272
10051.00	95.90100199
10054.00	95.67674965
10057.00	95.98874912
10060.00	96.16424918
10063.00	96.16424918
10066.00	96.34950086
10069.00	96.54449835
10072.00	96.26174793
10075.00	96.19349822
10078.00	95.92049941
10081.00	95.92049941
10084.00	95.93025103
10087.00	95.39399922
10090.00	94.85774741
10093.00	94.90649968
10096.00	94.6529983
10099.00	94.39950272
10102.00	93.94125223
10105.00	93.86325091
10108.00	93.70724827
10111.00	93.33675072
10114.00	92.95650154
10117.00	92.49825105
10120.00	92.48849943
10123.00	92.11800188
10126.00	91.99124828
10129.00	91.87425211
10132.00	92.03024894
10135.00	92.0692496
10138.00	91.83525145
10141.00	91.79625079
10144.00	91.76700175
10147.00	91.87425211
10150.00	91.91325277
10153.00	92.02049732
10156.00	92.43974715
10159.00	92.8590028
10162.00	92.94674993
10165.00	92.95650154
10168.00	93.15149903
10171.00	93.07349771
10174.00	92.9955022
10177.00	92.51774848
10180.00	92.3325026
10183.00	91.9327502
10186.00	91.25024736
10189.00	90.56775033
10192.00	89.67075258
10195.00	88.890751
10198.00	87.35025108
10201.00	85.72199821
10204.00	84.09375116
10207.00	82.68975064
10210.00	80.63250214
10213.00	78.28275159
10216.00	75.69900289
10219.00	73.125
10222.00	70.04400015
10225.00	66.79725185
10228.00	63.48224804
10231.00	60.38175076
10234.00	57.27150187
10237.00	54.15150136
10240.00	50.7975027
10243.00	47.93100066
10246.00	44.88899857
10249.00	41.82749905
10252.00	38.75625081
10255.00	35.92874944
10258.00	33.22799876
10261.00	30.76124914
10264.00	28.30425113
10267.00	26.1007487
10270.00	24.19949993
10273.00	22.22024985
10276.00	20.45550048
10279.00	18.70049983
10282.00	17.27700043
10285.00	15.81450038
10288.00	14.51775022
10291.00	13.40625029
10294.00	12.29475036
10297.00	11.30999967
10300.00	10.44225024
10303.00	9.610574674
10306.00	8.894924764
10309.00	8.1734249
10312.00	7.513349913
10315.00	6.934200134
10318.00	6.396974903
10321.00	5.931899948
10324.00	5.467799865
10327.00	5.023200111
10330.00	4.624425117
10333.00	4.25392502
10336.00	3.950700117
10339.00	3.64649998
10342.00	3.370575104
10345.00	3.131700056
10348.00	2.901599938
10351.00	2.690024916
10354.00	2.478450076
10357.00	2.281499938
10360.00	2.140125087
10363.00	1.946099927
10366.00	1.81057503
10369.00	1.673100027
10372.00	1.560000074
10375.00	1.490774956
10378.00	1.357199983
10381.00	1.270425003
10384.00	1.183650023
10387.00	1.094925029
10390.00	1.039350014
10393.00	0.945164978
10396.00	0.882179998
10399.00	0.818805015
10402.00	0.784679982
10405.00	0.710775009
10408.00	0.679672522
10411.00	0.641549982
10414.00	0.603427486
10417.00	0.578272522
10420.00	0.54131999
10423.00	0.488864999
10426.00	0.466147485
10429.00	0.443430017
10432.00	0.380834994
10435.00	0.37098751
10438.00	0.373230004
10441.00	0.348269996
10444.00	0.323212509
10447.00	0.319312502
10450.00	0.264712495
10453.00	0.269295007
10456.00	0.245992489
10459.00	0.222787494
10462.00	0.210209989
10465.00	0.238485
10468.00	0.244042497
10471.00	0.217229997
10474.00	0.190319996
10477.00	0.151125004
10480.00	0.206797508
10483.00	0.154732498
10486.00	0.150052496
10489.00	0.145372495
10492.00	0.154050004
10495.00	0.139424995
10498.00	0.089641502
10501.00	0.109005001
10504.00	0.128700004
10507.00	0.084396001
10510.00	0.102960001
10513.00	0.093024749
10516.00	0.083820753
10519.00	0.074646001
10522.00	0.078653247
10525.00	0.068815502
10528.00	0.064116
10531.00	0.049100999
10534.00	0.034124999
10537.00	0.082650749
10540.00	0.036065249
10543.00	0.066797248
10546.00	0.053771251
10549.00	0.040696501
10552.00	0.026295749
10555.00	0.06488625
10558.00	0.038025
10561.00	0.0398775
10564.00	0.04173975
10567.00	0.02015325
10570.00	0.059748001
10573.00	0.027339001
10576.00	0.02797275
10579.00	0.028616249
10582.00	0.020757751
10585.00	0.038941501
10588.00	0.026637001
10591.00	0.032711249
10594.00	0.03879525
10597.00	0.02327325
10600.00	0.01679925
10603.00	0.047209499
10606.00	0.023936251
10609.00	0.000645742
10612.00	0.030371251
10615.00	0.01034475
10618.00	0.027085499
10621.00	0.0038961
10624.00	0
